{
  "resourceType": "Bundle",
  "meta": {
    "lastUpdated": "2022-05-06T13:13:54.005+00:00",
    "profile": [
      "https://example.org/fhir/StructureDefinition/ActivityBundle"
    ]
  },
  "identifier": {
    "system": "urn:ietf:rfc:3986",
    "value": "urn:uuid:e373c6b6-d2de-4743-9b23-be3a2e28b055"
  },
  "type": "document",
  "timestamp": "2022-05-06T13:13:54.005+00:00",
  "entry": [
    {
      "fullUrl": "urn:uuid:925b5d8c-ca24-4bad-b3eb-e44e911e2d61",
      "resource": {
        "resourceType": "Composition",
        "meta": {
          "profile": [
            "https://example.org/fhir/StructureDefinition/ActivityComposition"
          ]
        },
        "contained": [
          {
            "resourceType": "Patient",
            "id": "2",
            "meta": {
              "profile": [
                "https://example.org/fhir/StructureDefinition/MedpowerPatient"
              ]
            },
            "identifier": [
              {
                "system": "urn:ietf:rfc:4122",
                "value": "{{patientId}}"
              }
            ]
          },
          {
            "resourceType": "Device",
            "id": "1",
            "meta": {
              "profile": [
                "https://example.org/fhir/StructureDefinition/WearableDevice"
              ]
            },
            "identifier": [
              {
                "value": "HiGHmed-Test"
              }
            ],
            "manufacturer": "Apple Inc.",
            "deviceName": [
              {
                "name": "Watch6,4",
                "type": "model-name"
              }
            ],
            "version": [
              {
                "value": "8.5.1"
              }
            ]
          }
        ],
        "status": "final",
        "type": {
          "coding": [
            {
              "system": "http://loinc.org",
              "code": "64296-7",
              "display": "Personal health monitoring report Automated"
            }
          ]
        },
        "subject": {
          "reference": "#2"
        },
        "date": "2022-05-06T13:13:54+00:00",
        "author": [
          {
            "reference": "#1"
          }
        ],
        "title": "Physical Activity Section",
        "section": [
          {
            "code": {
              "coding": [
                {
                  "system": "http://terminology.hl7.org/CodeSystem/observation-category",
                  "code": "activity",
                  "display": "Activity"
                }
              ],
              "text": "Activity"
            },
            "entry": [
              {
                "reference": "urn:uuid:4ec8fb45-01eb-476a-a000-10b9d514d806"
              },
              {
                "reference": "urn:uuid:d2755bec-ea52-4134-8258-4de9d4162a22"
              }
            ]
          }
        ]
      }
    },
    {
      "fullUrl": "urn:uuid:4ec8fb45-01eb-476a-a000-10b9d514d806",
      "resource": {
        "resourceType": "Observation",
        "id": "4ec8fb45-01eb-476a-a000-10b9d514d806",
        "meta": {
          "profile": [
            "https://example.org/fhir/StructureDefinition/StepsObservation"
          ]
        },
        "contained": [
          {
            "resourceType": "Device",
            "id": "1",
            "meta": {
              "profile": [
                "https://example.org/fhir/StructureDefinition/WearableDevice"
              ]
            },
            "identifier": [
              {
                "value": "HiGHmed-Test"
              }
            ],
            "manufacturer": "Apple Inc.",
            "deviceName": [
              {
                "name": "Watch6,4",
                "type": "model-name"
              }
            ],
            "version": [
              {
                "value": "8.5.1"
              }
            ]
          },
          {
            "resourceType": "Patient",
            "id": "2",
            "meta": {
              "profile": [
                "https://example.org/fhir/StructureDefinition/MedpowerPatient"
              ]
            },
            "identifier": [
              {
                "system": "urn:ietf:rfc:4122",
                "value": "{{patientId}}"
              }
            ]
          }
        ],
        "status": "final",
        "category": [
          {
            "coding": [
              {
                "system": "http://terminology.hl7.org/CodeSystem/observation-category",
                "code": "activity",
                "display": "Activity"
              }
            ],
            "text": "Activity"
          }
        ],
        "code": {
          "coding": [
            {
              "system": "http://loinc.org",
              "code": "55423-8",
              "display": "Number of steps in unspecified time Pedometer"
            }
          ],
          "text": "Number of Steps"
        },
        "subject": {
          "reference": "#2"
        },
        "effectivePeriod": {
          "start": "2022-05-04T22:08:33Z",
          "end": "2022-05-04T22:12:48Z"
        },
        "note": [
          {
            "text": "{\"type\":\"ADDITIONAL_DEVICE\",\"device_id\":\"HiGHmed-Test_Apple Inc._iPhone13,2_15.4.1\",\"manufacturer\":\"Apple Inc.\",\"deviceName\":\"iPhone13,2\",\"version\":\"15.4.1\"}"
          }
        ],
        "method": {
          "text": "Measurement calculated via Apple Health Kit algorithm"
        },
        "device": {
          "reference": "#1"
        },
        "component": [
          {
            "code": {
              "coding": [
                {
                  "system": "http://loinc.org",
                  "code": "55423-8",
                  "display": "Number of steps in unspecified time Pedometer"
                }
              ],
              "text": "Number of Steps"
            },
            "valueQuantity": {
              "value": 83.0,
              "unit": "steps",
              "system": "http://unitsofmeasure.org",
              "code": "{steps}"
            }
          }
        ]
      }
    },
    {
      "fullUrl": "urn:uuid:d2755bec-ea52-4134-8258-4de9d4162a22",
      "resource": {
        "resourceType": "Observation",
        "id": "d2755bec-ea52-4134-8258-4de9d4162a22",
        "meta": {
          "profile": [
            "https://example.org/fhir/StructureDefinition/StepsObservation"
          ]
        },
        "contained": [
          {
            "resourceType": "Device",
            "id": "1",
            "meta": {
              "profile": [
                "https://example.org/fhir/StructureDefinition/WearableDevice"
              ]
            },
            "identifier": [
              {
                "value": "HiGHmed-Test"
              }
            ],
            "manufacturer": "Apple Inc.",
            "deviceName": [
              {
                "name": "Watch6,4",
                "type": "model-name"
              }
            ],
            "version": [
              {
                "value": "8.5.1"
              }
            ]
          },
          {
            "resourceType": "Patient",
            "id": "2",
            "meta": {
              "profile": [
                "https://example.org/fhir/StructureDefinition/MedpowerPatient"
              ]
            },
            "identifier": [
              {
                "system": "urn:ietf:rfc:4122",
                "value": "{{patientId}}"
              }
            ]
          }
        ],
        "status": "final",
        "category": [
          {
            "coding": [
              {
                "system": "http://terminology.hl7.org/CodeSystem/observation-category",
                "code": "activity",
                "display": "Activity"
              }
            ],
            "text": "Activity"
          }
        ],
        "code": {
          "coding": [
            {
              "system": "http://loinc.org",
              "code": "55423-8",
              "display": "Number of steps in unspecified time Pedometer"
            }
          ],
          "text": "Number of Steps"
        },
        "subject": {
          "reference": "#2"
        },
        "effectivePeriod": {
          "start": "2022-05-04T22:08:33Z",
          "end": "2022-05-04T22:12:48Z"
        },
        "note": [
          {
            "text": "{\"type\":\"ADDITIONAL_DEVICE\",\"device_id\":\"HiGHmed-Test_Apple Inc._iPhone13,2_15.4.1\",\"manufacturer\":\"Apple Inc.\",\"deviceName\":\"iPhone13,2\",\"version\":\"15.4.1\"}"
          }
        ],
        "method": {
          "text": "Measurement calculated via Apple Health Kit algorithm"
        },
        "device": {
          "reference": "#1"
        },
        "component": [
          {
            "code": {
              "coding": [
                {
                  "system": "http://loinc.org",
                  "code": "55423-8",
                  "display": "Number of steps in unspecified time Pedometer"
                }
              ],
              "text": "Number of Steps"
            },
            "valueQuantity": {
              "value": 38.0,
              "unit": "steps",
              "system": "http://unitsofmeasure.org",
              "code": "{steps}"
            }
          }
        ]
      }
    }
  ]
}
