<Bundle xmlns="http://hl7.org/fhir">
    <meta>
        <profile value="https://profiles.ihe.net/ITI/MHD/StructureDefinition/IHE.MHD.Comprehensive.ProvideBundle"/>
    </meta>
    <type value="transaction"/>
    <entry>
        <fullUrl value="List/1"/>
        <resource>
            <List>
                <meta>
                    <profile value="https://profiles.ihe.net/ITI/MHD/StructureDefinition/IHE.MHD.Comprehensive.SubmissionSet"/>
                </meta>
                <contained>
                    <PractitionerRole>
                        <id value="author-role"/>
                        <code>
                            <coding>
                                <system value="urn:oid:1.3.6.1.4.1.19376.3.276.1.5.13"/>
                                <code value="5"/>
                                <display value="durchführendes Gerät"/>
                            </coding>
                        </code>
                    </PractitionerRole>
                </contained>
                <extension url="https://profiles.ihe.net/ITI/MHD/StructureDefinition/ihe-designationType">
                    <valueCodeableConcept>
                        <coding>
                            <system value="urn:oid:1.3.6.1.4.1.19376.3.276.1.5.12"/>
                            <code value="11"/>
                            <display value="Monitoring"/>
                        </coding>
                        <text value="Monitoring"/>
                    </valueCodeableConcept>
                </extension>
                <extension url="https://profiles.ihe.net/ITI/MHD/StructureDefinition/ihe-sourceId">
                    <valueIdentifier>
                        <value value="urn:oid:1.2.276.0.76.4.15.1.1.10.16"/>
                    </valueIdentifier>
                </extension>
                <identifier>
                    <use value="usual"/>
                    <system value="urn:ietf:rfc:3986"/>
                    <value value="urn:uuid:02c7f458-ffc4-47dd-a9cc-81eb98aef380"/>
                </identifier>
                <identifier>
                    <use value="official"/>
                    <system value="urn:ietf:rfc:3986"/>
                    <value value="urn:uuid:02c7f458-ffc4-47dd-a9cc-81eb98aef380"/>
                </identifier>
                <status value="current"/>
                <mode value="working"/>
                <code>
                    <coding>
                        <system value="https://profiles.ihe.net/ITI/MHD/CodeSystem/MHDlistTypes"/>
                        <code value="submissionset"/>
                    </coding>
                </code>
                <subject>
                    <reference value="Patient/me_"/>
                </subject>
                <date value="2022-05-10T09:01:58.295901+02:00"/>
                <source>
                    <reference value="#author-role"/>
                </source>
                <entry>
                    <item>
                        <reference value="DocumentReference/3"/>
                    </item>
                </entry>
            </List>
        </resource>
        <request>
            <method value="POST"/>
            <url value="List"/>
        </request>
    </entry>
    <entry>
        <fullUrl value="DocumentReference/3"/>
        <resource>
            <DocumentReference>
                <meta>
                    <profile value="https://profiles.ihe.net/ITI/MHD/StructureDefinition/IHE.MHD.Comprehensive.DocumentReference"/>
                </meta>
                <contained>
                    <PractitionerRole>
                        <id value="author-role"/>
                        <code>
                            <coding>
                                <system value="urn:oid:1.3.6.1.4.1.19376.3.276.1.5.13"/>
                                <code value="5"/>
                                <display value="durchführendes Gerät"/>
                            </coding>
                        </code>
                    </PractitionerRole>
                </contained>
                <contained>
                    <Patient>
                        <id value="in-patient"/>
                    </Patient>
                </contained>
                <masterIdentifier>
                    <system value="urn:ietf:rfc:3986"/>
                    <value value="urn:uuid:f72a261b-feb7-4d59-9007-889cab315a39"/>
                </masterIdentifier>
                <identifier>
                    <system value="urn:ietf:rfc:3986"/>
                    <value value="urn:uuid:f72a261b-feb7-4d59-9007-889cab315a39"/>
                </identifier>
                <status value="current"/>
                <type>
                    <coding>
                        <system value="urn:oid:1.3.6.1.4.1.19376.3.276.1.5.9"/>
                        <code value="FUNK"/>
                        <display value="Ergebnisse Funktionsdiagnostik"/>
                    </coding>
                    <text value="Ergebnisse Funktionsdiagnostik"/>
                </type>
                <category>
                    <coding>
                        <system value="urn:oid:1.3.6.1.4.1.19376.3.276.1.5.8"/>
                        <code value="DUR"/>
                    </coding>
                    <text value="Durchführungsprotokoll"/>
                </category>
                <subject>
                    <reference value="Patient/me_"/>
                </subject>
                <date value="2022-05-10T09:01:58.295901+02:00"/>
                <author>
                    <reference value="#author-role"/>
                </author>
                <description value="Schrittmessungen"/>
                <securityLabel>
                    <coding>
                        <system value="urn:oid:2.16.840.1.113883.5.25"/>
                        <code value="N"/>
                    </coding>
                </securityLabel>
                <content>
                    <attachment>
                        <contentType value="application/fhir+json"/>
                        <language value="de-DE"/>
                        <url value="Binary/6"/>
                        <title value="Schrittmessungen"/>
                        <creation value="2022-05-10T09:01:58.295901+02:00"/>
                    </attachment>
                    <format>
                        <system value="urn:oid:1.3.6.1.4.1.19376.1.2.3"/>
                        <code value="urn:ihe:iti:xds:2017:mimeTypeSufficient"/>
                    </format>
                </content>
                <context>
                    <event>
                        <coding>
                            <system value="urn:oid:1.3.6.1.4.1.19376.3.276.1.5.15"/>
                            <code value="H1"/>
                            <display value="vom Patienten mitgebracht"/>
                        </coding>
                        <text value="vom Patienten mitgebracht"/>
                    </event>
                    <event>
                        <coding>
                            <system value="urn:oid:1.3.6.1.4.1.19376.3.276.1.5.16"/>
                            <code value="E300"/>
                            <display value="Behandlung im häuslichen Umfeld"/>
                        </coding>
                    </event>
                    <facilityType>
                        <coding>
                            <system value="urn:oid:1.3.6.1.4.1.19376.3.276.1.5.3"/>
                            <code value="PAT"/>
                            <display value="Patient außerhalb der Betreuung"/>
                        </coding>
                        <text value="Patient außerhalb der Betreuung"/>
                    </facilityType>
                    <practiceSetting>
                        <coding>
                            <system value="urn:oid:1.3.6.1.4.1.19376.3.276.1.5.5"/>
                            <code value="PAT"/>
                            <display value="Patient außerhalb Betreuung"/>
                        </coding>
                        <text value="Patient außerhalb Betreuung"/>
                    </practiceSetting>
                    <sourcePatientInfo>
                        <reference value="#in-patient"/>
                    </sourcePatientInfo>
                </context>
            </DocumentReference>
        </resource>
        <request>
            <method value="POST"/>
            <url value="DocumentReference"/>
        </request>
    </entry>
    <entry>
        <fullUrl value="Binary/6"/>
        <resource>
            <Binary>
                <contentType value="application/fhir+json"/>
                <data value=""/>
            </Binary>
        </resource>
        <request>
            <method value="POST"/>
            <url value="Binary"/>
        </request>
    </entry>
</Bundle>
