{
  "resourceType": "Bundle",
  "id": "bundle-transaction-bga",
  "meta": {
    "lastUpdated": "2020-09-24T05:33:00Z"
  },
  "type": "transaction",
  "entry": [
    {
      "fullUrl": "urn:uuid:220767b9-5760-40b8-8741-8772dae04c3f",
      "resource": {
        "resourceType": "Observation",
        "meta": {
          "profile": [
            "https://www.netzwerk-universitaetsmedizin.de/fhir/StructureDefinition/sars-cov-2-ab-pnl-ser-pl-ia"
          ]
        },
        "identifier": [
          {
            "type": {
              "coding": [
                {
                  "system": "http://terminology.hl7.org/CodeSystem/v2-0203",
                  "code": "OBI"
                }
              ]
            },
            "system": "https://www.charite.de/fhir/CodeSystem/lab-identifiers",
            "value": "94504-8_SARS-CoV-2-Ab-Panel",
            "assigner": {
              "reference": "Organization/Charité"
            }
          }
        ],
        "status": "final",
        "category": [
          {
            "coding": [
              {
                "system": "http://loinc.org",
                "code": "26436-6"
              },
              {
                "system": "http://terminology.hl7.org/CodeSystem/observation-category",
                "code": "laboratory"
              }
            ]
          }
        ],
        "code": {
          "coding": [
            {
              "system": "http://loinc.org",
              "code": "94504-8",
              "display": "SARS-CoV-2 (COVID-19) Ab panel - Serum or Plasma by Immunoassay"
            }
          ],
          "text": "SARS-CoV-2 antibodies panel"
        },
        "subject": {
          "identifier": {
            "system": "urn:ietf:rfc:4122",
            "value": "{{patientId}}"
          }
        },
        "effectiveDateTime": "2020-10-19T08:43:33+02:00",
        "hasMember": [
          {
            "reference": "urn:uuid:22732de8-3eb6-477e-81d6-28fb906b3e4e"
          },
          {
            "reference": "urn:uuid:70ca7d00-0d8b-42bb-9508-a8fc76e5c7ad"
          },
          {
            "reference": "urn:uuid:7e746710-fad4-474b-8a28-422863f3a2b8"
          },
          {
            "reference": "urn:uuid:f35f17da-f642-402d-8cf4-ff70607713a7"
          },
          {
            "reference": "urn:uuid:7297b0fd-3be7-4b88-a63a-6ba651152c41"
          },
          {
            "reference": "urn:uuid:da1fa3fe-a8a3-44b6-94c6-3497269436ec"
          },
          {
            "reference": "urn:uuid:b5adbc53-a1ee-4a57-9ede-fae4b4462bfb"
          },
          {
            "reference": "urn:uuid:b08b1687-2ea1-4b14-9473-dd04389169ec"
          }
        ]
      },
      "request": {
        "method": "POST",
        "url": "Observation"
      }
    },
    {
      "fullUrl": "urn:uuid:70ca7d00-0d8b-42bb-9508-a8fc76e5c7ad",
      "resource": {
        "resourceType": "Observation",
        "meta": {
          "profile": [
            "https://www.netzwerk-universitaetsmedizin.de/fhir/StructureDefinition/sars-cov-2-ab-ser-pl-ql-ia"
          ]
        },
        "identifier": [
          {
            "type": {
              "coding": [
                {
                  "system": "http://terminology.hl7.org/CodeSystem/v2-0203",
                  "code": "OBI"
                }
              ]
            },
            "system": "https://www.charite.de/fhir/CodeSystem/lab-identifiers",
            "value": "94762-2_SARS-CoV-2-Ab-Ql",
            "assigner": {
              "reference": "Organization/Charité"
            }
          }
        ],
        "status": "final",
        "category": [
          {
            "coding": [
              {
                "system": "http://loinc.org",
                "code": "26436-6"
              },
              {
                "system": "http://terminology.hl7.org/CodeSystem/observation-category",
                "code": "laboratory"
              }
            ]
          }
        ],
        "code": {
          "coding": [
            {
              "system": "http://loinc.org",
              "code": "94762-2",
              "display": "SARS-CoV-2 (COVID-19) Ab [Presence] in Serum or Plasma by Immunoassay"
            }
          ],
          "text": "SARS-CoV-2 antibodies qualitative"
        },
        "subject": {
          "identifier": {
            "system": "urn:ietf:rfc:4122",
            "value": "{{patientId}}"
          }
        },
        "effectiveDateTime": "2020-10-19T08:43:33+02:00",
        "valueCodeableConcept": {
          "coding": [
            {
              "system": "http://snomed.info/sct",
              "code": "260373001",
              "display": "Detected (qualifier value)"
            }
          ]
        }
      },
      "request": {
        "method": "POST",
        "url": "Observation"
      }
    },
    {
      "fullUrl": "urn:uuid:22732de8-3eb6-477e-81d6-28fb906b3e4e",
      "resource": {
        "resourceType": "Observation",
        "meta": {
          "profile": [
            "https://www.netzwerk-universitaetsmedizin.de/fhir/StructureDefinition/sars-cov-2-ab-ser-pl-ia-acnc"
          ]
        },
        "identifier": [
          {
            "type": {
              "coding": [
                {
                  "system": "http://terminology.hl7.org/CodeSystem/v2-0203",
                  "code": "OBI"
                }
              ]
            },
            "system": "https://www.charite.de/fhir/CodeSystem/lab-identifiers",
            "value": "94769-7_SARS-CoV-2-Ab-Qn",
            "assigner": {
              "reference": "Organization/Charité"
            }
          }
        ],
        "status": "final",
        "category": [
          {
            "coding": [
              {
                "system": "http://loinc.org",
                "code": "26436-6"
              },
              {
                "system": "http://terminology.hl7.org/CodeSystem/observation-category",
                "code": "laboratory"
              }
            ]
          }
        ],
        "code": {
          "coding": [
            {
              "system": "http://loinc.org",
              "code": "94769-7",
              "display": "SARS-CoV-2 (COVID-19) Ab [Units/volume] in Serum or Plasma by Immunoassay"
            }
          ],
          "text": "SARS-CoV-2 antibodies quantitative"
        },
        "subject": {
          "identifier": {
            "system": "urn:ietf:rfc:4122",
            "value": "{{patientId}}"
          }
        },
        "effectiveDateTime": "2020-10-19T08:43:33+02:00",
        "valueQuantity": {
          "value": 240,
          "unit": "[IU]/mL",
          "system": "http://unitsofmeasure.org",
          "code": "[IU]/mL"
        }
      },
      "request": {
        "method": "POST",
        "url": "Observation"
      }
    },
    {
      "fullUrl": "urn:uuid:7e746710-fad4-474b-8a28-422863f3a2b8",
      "resource": {
        "resourceType": "Observation",
        "meta": {
          "profile": [
            "https://www.netzwerk-universitaetsmedizin.de/fhir/StructureDefinition/sars-cov-2-iga-ser-pl-ia-acnc"
          ]
        },
        "identifier": [
          {
            "type": {
              "coding": [
                {
                  "system": "http://terminology.hl7.org/CodeSystem/v2-0203",
                  "code": "OBI"
                }
              ]
            },
            "system": "https://www.charite.de/fhir/CodeSystem/lab-identifiers",
            "value": "94720-0_SARS-CoV-2-IgA-Qn",
            "assigner": {
              "reference": "Organization/Charité"
            }
          }
        ],
        "status": "final",
        "category": [
          {
            "coding": [
              {
                "system": "http://loinc.org",
                "code": "26436-6"
              },
              {
                "system": "http://terminology.hl7.org/CodeSystem/observation-category",
                "code": "laboratory"
              }
            ]
          }
        ],
        "code": {
          "coding": [
            {
              "system": "http://loinc.org",
              "code": "94720-0",
              "display": "SARS-CoV-2 (COVID-19) IgA Ab [Units/volume] in Serum or Plasma by Immunoassay"
            }
          ],
          "text": "SARS-CoV-2 IgA antibodies quantitative"
        },
        "subject": {
          "identifier": {
            "system": "urn:ietf:rfc:4122",
            "value": "{{patientId}}"
          }
        },
        "effectiveDateTime": "2020-10-19T08:43:33+02:00",
        "valueQuantity": {
          "value": 0.5,
          "unit": "[IU]/mL",
          "system": "http://unitsofmeasure.org",
          "code": "[IU]/mL"
        }
      },
      "request": {
        "method": "POST",
        "url": "Observation"
      }
    },
    {
      "fullUrl": "urn:uuid:f35f17da-f642-402d-8cf4-ff70607713a7",
      "resource": {
        "resourceType": "Observation",
        "meta": {
          "profile": [
            "https://www.netzwerk-universitaetsmedizin.de/fhir/StructureDefinition/sars-cov-2-iga-ser-pl-ql-ia"
          ]
        },
        "identifier": [
          {
            "type": {
              "coding": [
                {
                  "system": "http://terminology.hl7.org/CodeSystem/v2-0203",
                  "code": "OBI"
                }
              ]
            },
            "system": "https://www.charite.de/fhir/CodeSystem/lab-identifiers",
            "value": "94562-6_SARS-CoV-2-IgA-Ql",
            "assigner": {
              "reference": "Organization/Charité"
            }
          }
        ],
        "status": "final",
        "category": [
          {
            "coding": [
              {
                "system": "http://loinc.org",
                "code": "26436-6"
              },
              {
                "system": "http://terminology.hl7.org/CodeSystem/observation-category",
                "code": "laboratory"
              }
            ]
          }
        ],
        "code": {
          "coding": [
            {
              "system": "http://loinc.org",
              "code": "94562-6",
              "display": "SARS-CoV-2 (COVID-19) IgA Ab [Presence] in Serum or Plasma by Immunoassay"
            }
          ],
          "text": "SARS-CoV-2 IgA antibodies qualitative"
        },
        "subject": {
          "identifier": {
            "system": "urn:ietf:rfc:4122",
            "value": "{{patientId}}"
          }
        },
        "effectiveDateTime": "2020-10-19T08:43:33+02:00",
        "valueCodeableConcept": {
          "coding": [
            {
              "system": "http://snomed.info/sct",
              "code": "260373001",
              "display": "Detected (qualifier value)"
            }
          ]
        }
      },
      "request": {
        "method": "POST",
        "url": "Observation"
      }
    },
    {
      "fullUrl": "urn:uuid:7297b0fd-3be7-4b88-a63a-6ba651152c41",
      "resource": {
        "resourceType": "Observation",
        "meta": {
          "profile": [
            "https://www.netzwerk-universitaetsmedizin.de/fhir/StructureDefinition/sars-cov-2-igg-ser-pl-ia-acnc"
          ]
        },
        "identifier": [
          {
            "type": {
              "coding": [
                {
                  "system": "http://terminology.hl7.org/CodeSystem/v2-0203",
                  "code": "OBI"
                }
              ]
            },
            "system": "https://www.charite.de/fhir/CodeSystem/lab-identifiers",
            "value": "94505-5_SARS-CoV-2-IgG-Qn",
            "assigner": {
              "reference": "Organization/Charité"
            }
          }
        ],
        "status": "final",
        "category": [
          {
            "coding": [
              {
                "system": "http://loinc.org",
                "code": "26436-6"
              },
              {
                "system": "http://terminology.hl7.org/CodeSystem/observation-category",
                "code": "laboratory"
              }
            ]
          }
        ],
        "code": {
          "coding": [
            {
              "system": "http://loinc.org",
              "code": "94505-5",
              "display": "SARS-CoV-2 (COVID-19) IgG Ab [Units/volume] in Serum or Plasma by Immunoassay"
            }
          ],
          "text": "SARS-CoV-2 IgG antibodies quantitative"
        },
        "subject": {
          "identifier": {
            "system": "urn:ietf:rfc:4122",
            "value": "{{patientId}}"
          }
        },
        "effectiveDateTime": "2020-10-19T08:43:33+02:00",
        "valueQuantity": {
          "value": 20,
          "unit": "[arb'U]/mL",
          "system": "http://unitsofmeasure.org",
          "code": "[arb'U]/mL"
        }
      },
      "request": {
        "method": "POST",
        "url": "Observation"
      }
    },
    {
      "fullUrl": "urn:uuid:da1fa3fe-a8a3-44b6-94c6-3497269436ec",
      "resource": {
        "resourceType": "Observation",
        "meta": {
          "profile": [
            "https://www.netzwerk-universitaetsmedizin.de/fhir/StructureDefinition/sars-cov-2-igg-ser-pl-ql-ia"
          ]
        },
        "identifier": [
          {
            "type": {
              "coding": [
                {
                  "system": "http://terminology.hl7.org/CodeSystem/v2-0203",
                  "code": "OBI"
                }
              ]
            },
            "system": "https://www.charite.de/fhir/CodeSystem/lab-identifiers",
            "value": "94563-4_SARS-CoV-2-IgG-Ql",
            "assigner": {
              "reference": "Organization/Charité"
            }
          }
        ],
        "status": "final",
        "category": [
          {
            "coding": [
              {
                "system": "http://loinc.org",
                "code": "26436-6"
              },
              {
                "system": "http://terminology.hl7.org/CodeSystem/observation-category",
                "code": "laboratory"
              }
            ]
          }
        ],
        "code": {
          "coding": [
            {
              "system": "http://loinc.org",
              "code": "94563-4",
              "display": "SARS-CoV-2 (COVID-19) IgG Ab [Presence] in Serum or Plasma by Immunoassay"
            }
          ],
          "text": "SARS-CoV-2 IgG antibodies qualitative"
        },
        "subject": {
          "identifier": {
            "system": "urn:ietf:rfc:4122",
            "value": "{{patientId}}"
          }
        },
        "effectiveDateTime": "2020-10-19T08:43:33+02:00",
        "valueCodeableConcept": {
          "coding": [
            {
              "system": "http://snomed.info/sct",
              "code": "260373001",
              "display": "Detected (qualifier value)"
            }
          ]
        }
      },
      "request": {
        "method": "POST",
        "url": "Observation"
      }
    },
    {
      "fullUrl": "urn:uuid:b5adbc53-a1ee-4a57-9ede-fae4b4462bfb",
      "resource": {
        "resourceType": "Observation",
        "meta": {
          "profile": [
            "https://www.netzwerk-universitaetsmedizin.de/fhir/StructureDefinition/sars-cov-2-igm-ser-pl-ia-acnc"
          ]
        },
        "identifier": [
          {
            "type": {
              "coding": [
                {
                  "system": "http://terminology.hl7.org/CodeSystem/v2-0203",
                  "code": "OBI"
                }
              ]
            },
            "system": "https://www.charite.de/fhir/CodeSystem/lab-identifiers",
            "value": "94505-5_SARS-CoV-2-IgM-Qn",
            "assigner": {
              "reference": "Organization/Charité"
            }
          }
        ],
        "status": "final",
        "category": [
          {
            "coding": [
              {
                "system": "http://loinc.org",
                "code": "26436-6"
              },
              {
                "system": "http://terminology.hl7.org/CodeSystem/observation-category",
                "code": "laboratory"
              }
            ]
          }
        ],
        "code": {
          "coding": [
            {
              "system": "http://loinc.org",
              "code": "94506-3",
              "display": "SARS-CoV-2 (COVID-19) IgM Ab [Units/volume] in Serum or Plasma by Immunoassay"
            }
          ],
          "text": "SARS-CoV-2 IgM antibodies quantitative"
        },
        "subject": {
          "identifier": {
            "system": "urn:ietf:rfc:4122",
            "value": "{{patientId}}"
          }
        },
        "effectiveDateTime": "2020-10-19T08:43:33+02:00",
        "valueQuantity": {
          "value": 219.5,
          "unit": "[arb'U]/mL",
          "system": "http://unitsofmeasure.org",
          "code": "[arb'U]/mL"
        }
      },
      "request": {
        "method": "POST",
        "url": "Observation"
      }
    },
    {
      "fullUrl": "urn:uuid:b08b1687-2ea1-4b14-9473-dd04389169ec",
      "resource": {
        "resourceType": "Observation",
        "meta": {
          "profile": [
            "https://www.netzwerk-universitaetsmedizin.de/fhir/StructureDefinition/sars-cov-2-igm-ser-pl-ql-ia"
          ]
        },
        "identifier": [
          {
            "type": {
              "coding": [
                {
                  "system": "http://terminology.hl7.org/CodeSystem/v2-0203",
                  "code": "OBI"
                }
              ]
            },
            "system": "https://www.charite.de/fhir/CodeSystem/lab-identifiers",
            "value": "94564-2_SARS-CoV-2-IgM-Ql",
            "assigner": {
              "reference": "Organization/Charité"
            }
          }
        ],
        "status": "final",
        "category": [
          {
            "coding": [
              {
                "system": "http://loinc.org",
                "code": "26436-6"
              },
              {
                "system": "http://terminology.hl7.org/CodeSystem/observation-category",
                "code": "laboratory"
              }
            ]
          }
        ],
        "code": {
          "coding": [
            {
              "system": "http://loinc.org",
              "code": "94564-2",
              "display": "SARS-CoV-2 (COVID-19) IgM Ab [Presence] in Serum or Plasma by Immunoassay"
            }
          ],
          "text": "SARS-CoV-2 IgM antibodies qualitative"
        },
        "subject": {
          "identifier": {
            "system": "urn:ietf:rfc:4122",
            "value": "{{patientId}}"
          }
        },
        "effectiveDateTime": "2020-10-19T08:43:33+02:00",
        "valueCodeableConcept": {
          "coding": [
            {
              "system": "http://snomed.info/sct",
              "code": "260373001",
              "display": "Detected (qualifier value)"
            }
          ]
        }
      },
      "request": {
        "method": "POST",
        "url": "Observation"
      }
    }
  ]
}